File: packages/xrd-xy-parser/xrd-xy-parser-0.0.4.tar.gz/xrd-xy-parser-0.0.4/examples/example.xy
<299.25K>
Wavelength = 1.54059
30	1.00
30.02	3.00
30.04	1.00
30.06	1.00
30.08	0.00
30.1	2.00
30.12	0.00
30.14	1.00
30.16	0.00
30.18	1.00
30.2	0.00
30.22	0.00
30.24	0.00
30.26	4.00
30.28	1.00
30.3	0.00
30.32	1.00
30.34	5.00
30.36	1.00
30.38	1.00
30.4	1.00
30.42	0.00
30.44	2.00
30.46	3.00
30.48	0.00
30.5	1.00
30.52	0.00
30.54	2.00
30.56	1.00
30.58	3.00
30.6	1.00
30.62	2.00
30.64	2.00
30.66	3.00
30.68	1.00
30.7	3.00
30.72	1.00
30.74	1.00
30.76	1.00
30.78	0.00
30.8	2.00
30.82	1.00
30.84	3.00
30.86	6.00
30.88	1.00
30.9	0.00
30.92	0.00
30.94	0.00
30.96	2.00
30.98	1.00
31	0.00
31.02	1.00
31.04	3.00
31.06	0.00
31.08	1.00
31.1	0.00
31.12	2.00
31.14	3.00
31.16	3.00
31.18	1.00
31.2	0.00
31.22	2.00
31.24	0.00
31.26	2.00
31.28	2.00
31.3	5.00
31.32	0.00
31.34	2.00
31.36	0.00
31.38	1.00
31.4	0.00
31.42	0.00
31.44	3.00
31.46	1.00
31.48	1.00
31.5	1.00
31.52	3.00
31.54	1.00
31.56	1.00
31.58	1.00
31.6	1.00
31.62	0.00
31.64	2.00
31.66	5.00
31.68	4.00
31.7	1.00
31.72	1.00
31.74	3.00
31.76	2.00
31.78	5.00
31.8	1.00
31.82	1.00
31.84	6.00
31.86	3.00
31.88	1.00
31.9	1.00
31.92	0.00
31.94	2.00
31.96	4.00
31.98	2.00
32	4.00
32.02	0.00
32.04	1.00
32.06	1.00
32.08	3.00
32.1	1.00
32.12	2.00
32.14	1.00
32.16	1.00
32.18	2.00
32.2	2.00
32.22	3.00
32.24	1.00
32.26	1.00
32.28	2.00
32.3	1.00
32.32	1.00
32.34	2.00
32.36	1.00
32.38	1.00
32.4	4.00
32.42	2.00
32.44	1.00
32.46	0.00
32.48	0.00
32.5	2.00
32.52	1.00
32.54	0.00
32.56	1.00
32.58	3.00
32.6	2.00
32.62	1.00
32.64	1.00
32.66	2.00
32.68	1.00
32.7	3.00
32.72	1.00
32.74	0.00
32.76	1.00
32.78	3.00
32.8	0.00
32.82	1.00
32.84	2.00
32.86	1.00
32.88	4.00
32.9	2.00
32.92	5.00
32.94	0.00
32.96	1.00
32.98	0.00
33	2.00
33.02	2.00
33.04	0.00
33.06	1.00
33.08	2.00
33.1	0.00
33.12	1.00
33.14	2.00
33.16	1.00
33.18	2.00
33.2	3.00
33.22	0.00
33.24	2.00
33.26	1.00
33.28	0.00
33.3	1.00
33.32	0.00
33.34	1.00
33.36	1.00
33.38	3.00
33.4	3.00
33.42	2.00
33.44	3.00
33.46	1.00
33.48	1.00
33.5	2.00
33.52	0.00
33.54	1.00
33.56	0.00
33.58	2.00
33.6	0.00
33.62	2.00
33.64	0.00
33.66	0.00
33.68	1.00
33.7	0.00
33.72	0.00
33.74	3.00
33.76	5.00
33.78	2.00
33.8	0.00
33.82	1.00
33.84	3.00
33.86	2.00
33.88	3.00
33.9	1.00
33.92	4.00
33.94	1.00
33.96	1.00
33.98	0.00
34	1.00
34.02	2.00
34.04	0.00
34.06	1.00
34.08	3.00
34.1	0.00
34.12	1.00
34.14	1.00
34.16	0.00
34.18	1.00
34.2	0.00
34.22	0.00
34.24	0.00
34.26	0.00
34.28	0.00
34.3	1.00
34.32	2.00
34.34	1.00
34.36	1.00
34.38	1.00
34.4	3.00
34.42	1.00
34.44	2.00
34.46	3.00
34.48	2.00
34.5	2.00
34.52	3.00
34.54	0.00
34.56	2.00
34.58	1.00
34.6	1.00
34.62	0.00
34.64	1.00
34.66	1.00
34.68	5.00
34.7	0.00
34.72	3.00
34.74	1.00
34.76	2.00
34.78	2.00
34.8	0.00
34.82	0.00
34.84	3.00
34.86	1.00
34.88	1.00
34.9	0.00
34.92	2.00
34.94	0.00
34.96	0.00
34.98	2.00
35	4.00
35.02	1.00
35.04	1.00
35.06	0.00
35.08	1.00
35.1	1.00
35.12	0.00
35.14	0.00
35.16	1.00
35.18	1.00
35.2	1.00
35.22	3.00
35.24	2.00
35.26	2.00
35.28	5.00
35.3	1.00
35.32	1.00
35.34	3.00
35.36	0.00
35.38	2.00
35.4	1.00
35.42	2.00
35.44	0.00
35.46	0.00
35.48	3.00
35.5	0.00
35.52	2.00
35.54	2.00
35.56	1.00
35.58	2.00
35.6	1.00
35.62	3.00
35.64	1.00
35.66	0.00
35.68	1.00
35.7	2.00
35.72	1.00
35.74	3.00
35.76	3.00
35.78	3.00
35.8	2.00
35.82	3.00
35.84	10.00
35.86	27.00
35.88	21.00
35.9	29.00
35.92	58.00
35.94	50.00
35.96	24.00
35.98	14.00
36	1.00
36.02	3.00
36.04	2.00
36.06	1.00
36.08	0.00
36.1	1.00
36.12	2.00
36.14	2.00
36.16	0.00
36.18	0.00
36.2	3.00
36.22	0.00
36.24	1.00
36.26	0.00
36.28	0.00
36.3	1.00
36.32	1.00
36.34	1.00
36.36	0.00
36.38	0.00
36.4	1.00
36.42	1.00
36.44	0.00
36.46	0.00
36.48	2.00
36.5	1.00
36.52	0.00
36.54	2.00
36.56	0.00
36.58	2.00
36.6	0.00
36.62	1.00
36.64	5.00
36.66	1.00
36.68	1.00
36.7	2.00
36.72	0.00
36.74	1.00
36.76	1.00
36.78	1.00
36.8	3.00
36.82	3.00
36.84	0.00
36.86	0.00
36.88	5.00
36.9	2.00
36.92	0.00
36.94	2.00
36.96	2.00
36.98	2.00
37	0.00
37.02	0.00
37.04	3.00
37.06	2.00
37.08	1.00
37.1	0.00
37.12	0.00
37.14	1.00
37.16	1.00
37.18	1.00
37.2	1.00
37.22	0.00
37.24	1.00
37.26	0.00
37.28	0.00
37.3	1.00
37.32	1.00
37.34	1.00
37.36	1.00
37.38	3.00
37.4	3.00
37.42	3.00
37.44	2.00
37.46	1.00
37.48	0.00
37.5	4.00
37.52	1.00
37.54	2.00
37.56	0.00
37.58	2.00
37.6	1.00
37.62	0.00
37.64	0.00
37.66	0.00
37.68	0.00
37.7	0.00
37.72	0.00
37.74	2.00
37.76	1.00
37.78	2.00
37.8	0.00
37.82	2.00
37.84	1.00
37.86	0.00
37.88	1.00
37.9	2.00
37.92	1.00
37.94	0.00
37.96	1.00
37.98	0.00
38	1.00
38.02	1.00
38.04	2.00
38.06	0.00
38.08	1.00
38.1	2.00
38.12	3.00
38.14	1.00
38.16	0.00
38.18	3.00
38.2	0.00
38.22	1.00
38.24	0.00
38.26	3.00
38.28	0.00
38.3	1.00
38.32	0.00
38.34	1.00
38.36	2.00
38.38	1.00
38.4	0.00
38.42	2.00
38.44	3.00
38.46	2.00
38.48	0.00
38.5	1.00
38.52	1.00
38.54	1.00
38.56	1.00
38.58	1.00
38.6	0.00
38.62	1.00
38.64	0.00
38.66	1.00
38.68	0.00
38.7	1.00
38.72	4.00
38.74	3.00
38.76	1.00
38.78	0.00
38.8	1.00
38.82	2.00
38.84	1.00
38.86	0.00
38.88	1.00
38.9	0.00
38.92	1.00
38.94	1.00
38.96	0.00
38.98	1.00
39	1.00
39.02	1.00
39.04	0.00
39.06	0.00
39.08	0.00
39.1	2.00
39.12	0.00
39.14	0.00
39.16	0.00
39.18	0.00
39.2	1.00
39.22	1.00
39.24	0.00
39.26	1.00
39.28	2.00
39.3	2.00
39.32	1.00
39.34	0.00
39.36	0.00
39.38	2.00
39.4	0.00
39.42	0.00
39.44	0.00
39.46	0.00
39.48	1.00
39.5	2.00
39.52	1.00
39.54	1.00
39.56	0.00
39.58	0.00
39.6	2.00
39.62	1.00
39.64	1.00
39.66	3.00
39.68	1.00
39.7	3.00
39.72	2.00
39.74	1.00
39.76	2.00
39.78	0.00
39.8	1.00
39.82	2.00
39.84	1.00
39.86	1.00
39.88	1.00
39.9	1.00
39.92	0.00
39.94	0.00
39.96	0.00
39.98	2.00
40	1.00
40.02	1.00
40.04	0.00
40.06	1.00
40.08	2.00
40.1	1.00
40.12	0.00
40.14	2.00
40.16	1.00
40.18	1.00
40.2	2.00
40.22	0.00
40.24	0.00
40.26	2.00
40.28	0.00
40.3	2.00
40.32	1.00
40.34	0.00
40.36	2.00
40.38	1.00
40.4	0.00
40.42	0.00
40.44	0.00
40.46	3.00
40.48	0.00
40.5	1.00
40.52	0.00
40.54	1.00
40.56	1.00
40.58	1.00
40.6	1.00
40.62	1.00
40.64	0.00
40.66	0.00
40.68	0.00
40.7	2.00
40.72	1.00
40.74	0.00
40.76	0.00
40.78	2.00
40.8	3.00
40.82	1.00
40.84	1.00
40.86	2.00
40.88	1.00
40.9	0.00
40.92	0.00
40.94	0.00
40.96	1.00
40.98	2.00
41	2.00
41.02	0.00
41.04	0.00
41.06	0.00
41.08	0.00
41.1	0.00
41.12	2.00
41.14	1.00
41.16	0.00
41.18	2.00
41.2	3.00
41.22	1.00
41.24	0.00
41.26	2.00
41.28	1.00
41.3	3.00
41.32	0.00
41.34	0.00
41.36	1.00
41.38	0.00
41.4	0.00
41.42	0.00
41.44	0.00
41.46	1.00
41.48	0.00
41.5	1.00
41.52	1.00
41.54	1.00
41.56	0.00
41.58	1.00
41.6	2.00
41.62	1.00
41.64	0.00
41.66	3.00
41.68	0.00
41.7	0.00
41.72	0.00
41.74	4.00
41.76	2.00
41.78	3.00
41.8	1.00
41.82	0.00
41.84	0.00
41.86	1.00
41.88	0.00
41.9	1.00
41.92	1.00
41.94	1.00
41.96	0.00
41.98	1.00
42	1.00
42.02	1.00
42.04	1.00
42.06	0.00
42.08	0.00
42.1	0.00
42.12	0.00
42.14	2.00
42.16	1.00
42.18	1.00
42.2	2.00
42.22	0.00
42.24	0.00
42.26	0.00
42.28	1.00
42.3	3.00
42.32	2.00
42.34	0.00
42.36	0.00
42.38	0.00
42.4	1.00
42.42	2.00
42.44	1.00
42.46	0.00
42.48	1.00
42.5	1.00
42.52	0.00
42.54	1.00
42.56	0.00
42.58	0.00
42.6	0.00
42.62	3.00
42.64	3.00
42.66	3.00
42.68	0.00
42.7	1.00
42.72	0.00
42.74	0.00
42.76	0.00
42.78	2.00
42.8	2.00
42.82	0.00
42.84	0.00
42.86	2.00
42.88	1.00
42.9	1.00
42.92	0.00
42.94	1.00
42.96	2.00
42.98	1.00
43	0.00
43.02	0.00
43.04	0.00
43.06	2.00
43.08	1.00
43.1	2.00
43.12	1.00
43.14	0.00
43.16	2.00
43.18	0.00
43.2	0.00
43.22	2.00
43.24	1.00
43.26	0.00
43.28	0.00
43.3	1.00
43.32	0.00
43.34	0.00
43.36	1.00
43.38	0.00
43.4	1.00
43.42	1.00
43.44	0.00
43.46	1.00
43.48	0.00
43.5	0.00
43.52	2.00
43.54	1.00
43.56	1.00
43.58	1.00
43.6	3.00
43.62	0.00
43.64	1.00
43.66	1.00
43.68	3.00
43.7	0.00
43.72	1.00
43.74	2.00
43.76	2.00
43.78	1.00
43.8	0.00
43.82	0.00
43.84	2.00
43.86	1.00
43.88	0.00
43.9	2.00
43.92	0.00
43.94	1.00
43.96	0.00
43.98	0.00
44	1.00
44.02	2.00
44.04	0.00
44.06	0.00
44.08	0.00
44.1	3.00
44.12	0.00
44.14	0.00
44.16	0.00
44.18	2.00
44.2	0.00
44.22	0.00
44.24	1.00
44.26	1.00
44.28	3.00
44.3	4.00
44.32	0.00
44.34	4.00
44.36	1.00
44.38	1.00
44.4	0.00
44.42	0.00
44.44	0.00
44.46	0.00
44.48	1.00
44.5	1.00
44.52	2.00
44.54	0.00
44.56	0.00
44.58	1.00
44.6	1.00
44.62	1.00
44.64	0.00
44.66	2.00
44.68	0.00
44.7	2.00
44.72	1.00
44.74	0.00
44.76	0.00
44.78	1.00
44.8	0.00
44.82	1.00
44.84	2.00
44.86	0.00
44.88	0.00
44.9	0.00
44.92	1.00
44.94	3.00
44.96	0.00
44.98	0.00
45	0.00
45.02	0.00
45.04	2.00
45.06	1.00
45.08	2.00
45.1	1.00
45.12	2.00
45.14	4.00
45.16	0.00
45.18	2.00
45.2	0.00
45.22	0.00
45.24	6.00
45.26	9.00
45.28	19.00
45.3	64.00
45.32	77.00
45.34	93.00
45.36	75.00
45.38	51.00
45.4	27.00
45.42	10.00
45.44	8.00
45.46	7.00
45.48	4.00
45.5	2.00
45.52	1.00
45.54	3.00
45.56	2.00
45.58	0.00
45.6	1.00
45.62	2.00
45.64	3.00
45.66	3.00
45.68	1.00
45.7	2.00
45.72	0.00
45.74	1.00
45.76	3.00
45.78	2.00
45.8	1.00
45.82	1.00
45.84	0.00
45.86	2.00
45.88	0.00
45.9	1.00
45.92	0.00
45.94	0.00
45.96	0.00
45.98	1.00
46	0.00
46.02	1.00
46.04	0.00
46.06	0.00
46.08	3.00
46.1	3.00
46.12	0.00
46.14	4.00
46.16	1.00
46.18	2.00
46.2	1.00
46.22	2.00
46.24	2.00
46.26	1.00
46.28	1.00
46.3	0.00
46.32	0.00
46.34	2.00
46.36	3.00
46.38	0.00
46.4	1.00
46.42	1.00
46.44	2.00
46.46	1.00
46.48	1.00
46.5	0.00
46.52	0.00
46.54	0.00
46.56	0.00
46.58	1.00
46.6	0.00
46.62	1.00
46.64	2.00
46.66	4.00
46.68	2.00
46.7	1.00
46.72	1.00
46.74	0.00
46.76	0.00
46.78	4.00
46.8	3.00
46.82	3.00
46.84	0.00
46.86	1.00
46.88	0.00
46.9	0.00
46.92	1.00
46.94	0.00
46.96	1.00
46.98	0.00
47	2.00
47.02	1.00
47.04	3.00
47.06	1.00
47.08	0.00
47.1	0.00
47.12	1.00
47.14	2.00
47.16	2.00
47.18	2.00
47.2	1.00
47.22	1.00
47.24	2.00
47.26	1.00
47.28	0.00
47.3	1.00
47.32	2.00
47.34	1.00
47.36	0.00
47.38	0.00
47.4	2.00
47.42	0.00
47.44	1.00
47.46	1.00
47.48	1.00
47.5	1.00
47.52	0.00
47.54	0.00
47.56	1.00
47.58	1.00
47.6	1.00
47.62	1.00
47.64	2.00
47.66	2.00
47.68	0.00
47.7	0.00
47.72	1.00
47.74	2.00
47.76	1.00
47.78	1.00
47.8	0.00
47.82	2.00
47.84	1.00
47.86	0.00
47.88	0.00
47.9	1.00
47.92	1.00
47.94	1.00
47.96	1.00
47.98	1.00
48	2.00
48.02	1.00
48.04	0.00
48.06	3.00
48.08	1.00
48.1	0.00
48.12	2.00
48.14	0.00
48.16	3.00
48.18	0.00
48.2	0.00
48.22	2.00
48.24	1.00
48.26	0.00
48.28	0.00
48.3	1.00
48.32	1.00
48.34	1.00
48.36	1.00
48.38	0.00
48.4	1.00
48.42	2.00
48.44	2.00
48.46	0.00
48.48	1.00
48.5	1.00
48.52	0.00
48.54	1.00
48.56	1.00
48.58	0.00
48.6	0.00
48.62	1.00
48.64	1.00
48.66	2.00
48.68	0.00
48.7	1.00
48.72	1.00
48.74	0.00
48.76	0.00
48.78	0.00
48.8	0.00
48.82	0.00
48.84	0.00
48.86	1.00
48.88	1.00
48.9	1.00
48.92	1.00
48.94	1.00
48.96	2.00
48.98	1.00
49	0.00
49.02	1.00
49.04	1.00
49.06	0.00
49.08	0.00
49.1	4.00
49.12	1.00
49.14	0.00
49.16	0.00
49.18	2.00
49.2	1.00
49.22	1.00
49.24	0.00
49.26	0.00
49.28	0.00
49.3	0.00
49.32	0.00
49.34	4.00
49.36	2.00
49.38	2.00
49.4	0.00
49.42	2.00
49.44	2.00
49.46	0.00
49.48	1.00
49.5	0.00
49.52	0.00
49.54	0.00
49.56	1.00
49.58	0.00
49.6	1.00
49.62	1.00
49.64	3.00
49.66	0.00
49.68	2.00
49.7	0.00
49.72	1.00
49.74	0.00
49.76	2.00
49.78	0.00
49.8	1.00
49.82	3.00
49.84	1.00
49.86	0.00
49.88	1.00
49.9	0.00
49.92	0.00
49.94	2.00
49.96	4.00
49.98	1.00
49.99	0.00